{
  "column_labels": {
    "STUDYID": "Study Identifier",
    "USUBJID": "Unique Subject Identifier",
    "SUBJID": "Subject Identifier for the Study",
    "SITEID": "Study Site Identifier",
    "SITEGR1": "Pooled Site Group 1",
    "ARM": "Description of Planned Arm",
    "TRT01P": "Planned Treatment for Period 01",
    "TRT01PN": "Planned Treatment for Period 01 (N)",
    "TRT01A": "Actual Treatment for Period 01",
    "TRT01AN": "Actual Treatment for Period 01 (N)",
    "TRTSDT": "Date of First Exposure to Treatment",
    "TRTEDT": "Date of Last Exposure to Treatment",
    "TRTDUR": "Duration of Treatment (days)",
    "AVGDD": "Avg Daily Dose (as planned)",
    "CUMDOSE": "Cumulative Dose (as planned)",
    "AGE": "Age",
    "AGEGR1": "Pooled Age Group 1",
    "AGEGR1N": "Pooled Age Group 1 (N)",
    "AGEU": "Age Units",
    "RACE": "Race",
    "RACEN": "Race (N)",
    "SEX": "Sex",
    "ETHNIC": "Ethnicity",
    "SAFFL": "Safety Population Flag",
    "ITTFL": "Intent-To-Treat Population Flag",
    "EFFFL": "Efficacy Population Flag",
    "COMP8FL": "Completers of Week 8 Population Flag",
    "COMP16FL": "Completers of Week 16 Population Flag",
    "COMP24FL": "Completers of Week 24 Population Flag",
    "DISCONFL": "Did the Subject Discontinue the Study?",
    "DSRAEFL": "Discontinued due to AE?",
    "DTHFL": "Subject Died?",
    "BMIBL": "Baseline BMI (kg/m^2)",
    "BMIBLGR1": "Pooled Baseline BMI Group 1",
    "HEIGHTBL": "Baseline Height (cm)",
    "WEIGHTBL": "Baseline Weight (kg)",
    "EDUCLVL": "Years of Education",
    "DISONSDT": "Date of Onset of Disease",
    "DURDIS": "Duration of Disease (Months)",
    "DURDSGR1": "Pooled Disease Duration Group 1",
    "VISIT1DT": "Date of Visit 1",
    "RFSTDTC": "Subject Reference Start Date/Time",
    "RFENDTC": "Subject Reference End Date/Time",
    "VISNUMEN": "End of Trt Visit (Vis 12 or Early Term.)",
    "RFENDT": "Date of Discontinuation/Completion",
    "DCDECOD": "Standardized Disposition Term",
    "DCREASCD": "Reason for Discontinuation",
    "MMSETOT": "MMSE Total"
  },
  "value_labels": {},
  "variable_types": {
    "STUDYID": null,
    "USUBJID": null,
    "SUBJID": null,
    "SITEID": null,
    "SITEGR1": null,
    "ARM": null,
    "TRT01P": null,
    "TRT01PN": null,
    "TRT01A": null,
    "TRT01AN": null,
    "TRTSDT": "DATE9",
    "TRTEDT": "DATE9",
    "TRTDUR": null,
    "AVGDD": null,
    "CUMDOSE": null,
    "AGE": null,
    "AGEGR1": null,
    "AGEGR1N": null,
    "AGEU": null,
    "RACE": null,
    "RACEN": null,
    "SEX": null,
    "ETHNIC": null,
    "SAFFL": null,
    "ITTFL": null,
    "EFFFL": null,
    "COMP8FL": null,
    "COMP16FL": null,
    "COMP24FL": null,
    "DISCONFL": null,
    "DSRAEFL": null,
    "DTHFL": null,
    "BMIBL": null,
    "BMIBLGR1": null,
    "HEIGHTBL": null,
    "WEIGHTBL": null,
    "EDUCLVL": null,
    "DISONSDT": "DATE9",
    "DURDIS": null,
    "DURDSGR1": null,
    "VISIT1DT": "DATE9",
    "RFSTDTC": null,
    "RFENDTC": null,
    "VISNUMEN": null,
    "RFENDT": "DATE9",
    "DCDECOD": null,
    "DCREASCD": null,
    "MMSETOT": null
  }
}