{
  "column_labels": {
    "STUDYID": "Study Identifier",
    "SITEID": "Study Site Identifier",
    "USUBJID": "Unique Subject Identifier",
    "AGE": "Age",
    "AGEGR1": "Pooled Age Group 1",
    "AGEGR1N": "Pooled Age Group 1 (N)",
    "RACE": "Race",
    "RACEN": "Race (N)",
    "SEX": "Sex",
    "TRTSDT": "Date of First Exposure to Treatment",
    "TRTEDT": "Date of Last Exposure to Treatment",
    "TRTDUR": "Duration of treatment (days)",
    "TRTP": "Planned Treatment",
    "TRTA": "Actual Treatment",
    "TRTAN": "Actual Treatment (N)",
    "PARAM": "Parameter Description",
    "PARAMCD": "Parameter Code",
    "AVAL": "Analysis Value",
    "STARTDT": "Time to Event Origin Date for Subject",
    "ADT": "Analysis Date",
    "CNSR": "Censor",
    "EVNTDESC": "Event or Censoring Description",
    "SRCDOM": "Source Domain",
    "SRCVAR": "Source Variable",
    "SRCSEQ": "Source Sequence Number",
    "SAFFL": "Safety Population Flag"
  },
  "value_labels": {},
  "variable_types": {
    "STUDYID": null,
    "SITEID": null,
    "USUBJID": null,
    "AGE": "3",
    "AGEGR1": null,
    "AGEGR1N": "3",
    "RACE": null,
    "RACEN": "3",
    "SEX": null,
    "TRTSDT": "DATE9",
    "TRTEDT": "DATE9",
    "TRTDUR": "3",
    "TRTP": null,
    "TRTA": null,
    "TRTAN": null,
    "PARAM": null,
    "PARAMCD": null,
    "AVAL": null,
    "STARTDT": "DATE9",
    "ADT": "DATE9",
    "CNSR": null,
    "EVNTDESC": null,
    "SRCDOM": null,
    "SRCVAR": null,
    "SRCSEQ": null,
    "SAFFL": null
  }
}