{
  "column_labels": {
    "STUDYID": "Study Identifier",
    "DOMAIN": "Domain Abbreviation",
    "USUBJID": "Unique Subject Identifier",
    "AESEQ": "Sequence Number",
    "AESPID": "Sponsor-Defined Identifier",
    "AETERM": "Reported Term for the Adverse Event",
    "AELLT": "Lowest Level Term",
    "AELLTCD": "Lowest Level Term Code",
    "AEDECOD": "Dictionary-Derived Term",
    "AEPTCD": "Preferred Term Code",
    "AEHLT": "High Level Term",
    "AEHLTCD": "High Level Term Code",
    "AEHLGT": "High Level Group Term",
    "AEHLGTCD": "High Level Group Term Code",
    "AEBODSYS": "Body System or Organ Class",
    "AEBDSYCD": "Body System or Organ Class Code",
    "AESOC": "Primary System Organ Class",
    "AESOCCD": "Primary System Organ Class Code",
    "AESEV": "Severity/Intensity",
    "AESER": "Serious Event",
    "AEACN": "Action Taken with Study Treatment",
    "AEREL": "Causality",
    "AEOUT": "Outcome of Adverse Event",
    "AESCAN": "Involves Cancer",
    "AESCONG": "Congenital Anomaly or Birth Defect",
    "AESDISAB": "Persist or Signif Disability/Incapacity",
    "AESDTH": "Results in Death",
    "AESHOSP": "Requires or Prolongs Hospitalization",
    "AESLIFE": "Is Life Threatening",
    "AESOD": "Occurred with Overdose",
    "AEDTC": "Date/Time of Collection",
    "AESTDTC": "Start Date/Time of Adverse Event",
    "AEENDTC": "End Date/Time of Adverse Event",
    "AESTDY": "Study Day of Start of Adverse Event",
    "AEENDY": "Study Day of End of Adverse Event"
  },
  "value_labels": {},
  "variable_types": {
    "STUDYID": null,
    "DOMAIN": null,
    "USUBJID": null,
    "AESEQ": null,
    "AESPID": null,
    "AETERM": null,
    "AELLT": null,
    "AELLTCD": null,
    "AEDECOD": null,
    "AEPTCD": null,
    "AEHLT": null,
    "AEHLTCD": null,
    "AEHLGT": null,
    "AEHLGTCD": null,
    "AEBODSYS": null,
    "AEBDSYCD": null,
    "AESOC": null,
    "AESOCCD": null,
    "AESEV": null,
    "AESER": null,
    "AEACN": null,
    "AEREL": null,
    "AEOUT": null,
    "AESCAN": null,
    "AESCONG": null,
    "AESDISAB": null,
    "AESDTH": null,
    "AESHOSP": null,
    "AESLIFE": null,
    "AESOD": null,
    "AEDTC": null,
    "AESTDTC": null,
    "AEENDTC": null,
    "AESTDY": null,
    "AEENDY": null
  }
}