{
  "column_labels": {
    "STUDYID": "Study Identifier",
    "DOMAIN": "Domain Abbreviation",
    "USUBJID": "Unique Subject Identifier",
    "SUBJID": "Subject Identifier for the Study",
    "RFSTDTC": "Subject Reference Start Date/Time",
    "RFENDTC": "Subject Reference End Date/Time",
    "RFXSTDTC": "Date/Time of First Study Treatment",
    "RFXENDTC": "Date/Time of Last Study Treatment",
    "RFICDTC": "Date/Time of Informed Consent",
    "RFPENDTC": "Date/Time of End of Participation",
    "DTHDTC": "Date/Time of Death",
    "DTHFL": "Subject Death Flag",
    "SITEID": "Study Site Identifier",
    "AGE": "Age",
    "AGEU": "Age Units",
    "SEX": "Sex",
    "RACE": "Race",
    "ETHNIC": "Ethnicity",
    "ARMCD": "Planned Arm Code",
    "ARM": "Description of Planned Arm",
    "ACTARMCD": "Actual Arm Code",
    "ACTARM": "Description of Actual Arm",
    "COUNTRY": "Country",
    "DMDTC": "Date/Time of Collection",
    "DMDY": "Study Day of Collection"
  },
  "value_labels": {},
  "variable_types": {
    "STUDYID": null,
    "DOMAIN": null,
    "USUBJID": null,
    "SUBJID": null,
    "RFSTDTC": null,
    "RFENDTC": null,
    "RFXSTDTC": null,
    "RFXENDTC": null,
    "RFICDTC": null,
    "RFPENDTC": null,
    "DTHDTC": null,
    "DTHFL": null,
    "SITEID": null,
    "AGE": null,
    "AGEU": null,
    "SEX": null,
    "RACE": null,
    "ETHNIC": null,
    "ARMCD": null,
    "ARM": null,
    "ACTARMCD": null,
    "ACTARM": null,
    "COUNTRY": null,
    "DMDTC": null,
    "DMDY": null
  }
}